Folder: Al2O3_XRD/XRD_scan_data

File: Al2O3_Mesh 150 (75 to 106 microns)_1.xy
'Id: "" Comment: "" Operator: "Lab Manager" Anode: "Co" Scantype: "Coupled TwoTheta/Theta" TimePerStep: "38.4"
10 4.24479
10.4431 4.34896
10.8862 4.73958
11.3293 5.05208
11.7725 4.29687
12.2156 4.79167
12.6587 5.39062
13.1018 5.23437
13.5449 5.33854
13.988 5.625
14.4311 5.33854
14.8742 5.23437
15.3174 5.15625
15.7605 5.18229
16.2036 4.01042
16.6467 4.21875
17.0898 4.55729
17.5329 4.21875
17.976 3.59375
18.4191 3.33333
18.8623 3.41146
19.3054 2.60417
19.7485 2.5
20.1916 2.8125
20.6347 2.44792
21.0778 2.03125
21.5209 2.47396
21.964 1.64062
22.4072 1.5625
22.8503 1.11979
23.2934 1.5625
23.7365 1.17187
24.1796 0.833333
24.6227 1.27604
25.0658 1.01562
25.509 0.78125
25.9521 0.963542
26.3952 0.729167
26.8383 0.520833
27.2814 0.677083
27.7245 0.859375
28.1676 0.625
28.6107 0.885417
29.0539 6.95312
29.497 1.22396
29.9401 0.494792
30.3832 0.703125
30.8263 0.598958
31.2694 0.520833
31.7125 0.651042
32.1556 0.625
32.5988 0.494792
33.0419 0.598958
33.485 0.442708
33.9281 0.651042
34.3712 0.572917
34.8143 0.260417
35.2574 0.286458
35.7005 0.390625
36.1437 0.46875
36.5868 0.625
37.0299 0.390625
37.473 0.46875
37.9161 0.546875
38.3592 2.03125
38.8023 0.286458
39.2455 0.46875
39.6886 0.416667
40.1317 0.520833
40.5748 9.84375
41.0179 0.442708
41.461 0.572917
41.9041 0.442708
42.3472 0.677083
42.7904 0.390625
43.2335 0.520833
43.6766 10.4687
44.1197 0.286458
44.5628 0.390625
45.0059 0.442708
45.449 0.15625
45.8921 0.338542
46.3353 0.885417
46.7784 0.729167
47.2215 0.520833
47.6646 0.260417
48.1077 0.234375
48.5508 0.104167
48.9939 1.04167
49.437 0.442708
49.8802 0.46875
50.3233 36.1719
50.7664 0.677083
51.2095 0.520833
51.6526 0.651042
52.0957 0.338542
52.5388 0.338542
52.982 0.364583
53.4251 0.338542
53.8682 0.364583
54.3113 1.30208
54.7544 0.260417
55.1975 0.442708
55.6406 0.260417
56.0837 0.286458
56.5269 0.286458
56.97 0.208333
57.4131 0.234375
57.8562 0.3125
58.2993 0.260417
58.7424 0.104167
59.1855 0.15625
59.6286 0.15625
60.0718 0.182292
60.5149 0.3125
60.958 0.546875
61.4011 16.8229
61.8442 0.416667
62.2873 0.15625
62.7304 0.286458
63.1735 0.208333
63.6167 0.286458
64.0598 0.208333
64.5029 0.260417
64.946 0.546875
65.3891 0.364583
65.8322 0.15625
66.2753 0.182292
66.7185 0.729167
67.1616 1.25
67.6047 23.75
68.0478 0.494792
68.4909 0.364583
68.934 0.572917
69.3771 0.286458
69.8202 0.364583
70.2634 1.06771
70.7065 0.46875
71.1496 0.3125
71.5927 0.286458
72.0358 2.03125
72.4789 0.364583
72.922 0.234375
73.3651 0.130208
73.8083 0.208333
74.2514 0.208333
74.6945 0.104167
75.1376 0.208333
75.5807 0.286458
76.0238 0.260417
76.4669 0.234375
76.91 0.364583
77.3532 0.286458
77.7963 0.416667
78.2394 1.74479
78.6825 17.3177
79.1256 0.885417
79.5687 0.338542
80.0118 0.208333
80.455 0.729167
80.8981 3.98437
81.3412 0.208333
81.7843 0.572917
82.2274 0.3125
82.6705 0.3125
83.1136 0.364583
83.5567 0.46875
83.9999 0.208333
84.443 0.234375
84.8861 0.234375
85.3292 0.15625
85.7723 0.078125
86.2154 0.286458
86.6585 0.182292
87.1016 0.182292
87.5448 0.260417
87.9879 0.364583
88.431 0.260417
88.8741 0.625
89.3172 0.416667
89.7603 0.442708
90.2034 0.390625
90.6465 0.208333
91.0897 0.338542
91.5328 0.338542
91.9759 2.60417
92.419 2.05729
92.8621 0.729167
93.3052 0.286458
93.7483 0.286458
94.1915 0.625
94.6346 0.416667
95.0777 0.442708
95.5208 0.364583
95.9639 0.286458
96.407 0.416667
96.8501 0.546875
97.2932 0.677083
97.7364 0.364583
98.1795 0.182292
98.6226 0.234375
99.0657 0.260417
99.5088 0.208333
99.9519 0.260417
100.395 0.364583
100.838 0.572917
101.281 0.260417
101.724 0.234375
102.167 1.64062
102.611 0.338542
103.054 0.442708
103.497 0.46875
103.94 0.338542
104.383 0.15625
104.826 2.21354
105.269 1.25
105.712 0.3125
106.155 0.46875
106.599 0.390625
107.042 0.208333
107.485 0.208333
107.928 0.46875
108.371 0.442708
108.814 0.546875
109.257 0.338542
109.7 0.130208
110.144 0.338542
110.587 0.442708
111.03 0.598958
111.473 0.807292
111.916 1.35417
112.359 0.807292
112.802 0.364583
113.245 0.364583
113.688 0.364583
114.132 0.364583
114.575 0.208333
115.018 0.338542
115.461 0.260417
115.904 0.546875
116.347 0.46875
116.79 0.494792
117.233 0.572917
117.676 1.30208
118.12 1.66667
118.563 0.546875
119.006 0.338542
119.449 0.416667
119.892 0.234375
120.335 0.286458
120.778 0.260417
121.221 0.286458
121.664 0.442708
122.108 0.234375
122.551 0.755208
122.994 0.546875
123.437 0.390625
123.88 0.3125
124.323 0.442708
124.766 0.3125
125.209 0.46875
125.652 0.286458
126.096 0.338542
126.539 0.46875
126.982 1.51042
127.425 1.11979
127.868 1.14583
128.311 0.416667
128.754 0.338542
129.197 0.442708
129.64 0.520833
130.084 0.546875
130.527 0.260417
130.97 1.69271
131.413 0.442708
131.856 0.442708
132.299 0.442708
132.742 0.364583
133.185 0.338542
133.628 0.3125
134.072 0.416667
134.515 0.416667
134.958 0.442708
135.401 0.260417
135.844 0.546875
136.287 0.598958
136.73 0.390625
137.173 0.364583
137.617 0.364583
138.06 0.364583
138.503 0.3125
138.946 0.338542
139.389 0.364583
139.832 0.416667
139.997 0.390625

File: Al2O3_Mesh 180 (63 to 90 microns)_2.xy
'Id: "" Comment: "" Operator: "Lab Manager" Anode: "Co" Scantype: "Coupled TwoTheta/Theta" TimePerStep: "38.4"
10 1.27604
10.4431 1.11979
10.8862 1.17187
11.3293 1.17187
11.7725 0.911458
12.2156 1.06771
12.6587 1.09375
13.1018 1.43229
13.5449 1.06771
13.988 1.04167
14.4311 0.651042
14.8742 1.04167
15.3174 0.9375
15.7605 0.833333
16.2036 0.833333
16.6467 0.9375
17.0898 0.651042
17.5329 0.78125
17.976 0.9375
18.4191 0.677083
18.8623 0.572917
19.3054 0.807292
19.7485 0.572917
20.1916 0.677083
20.6347 0.338542
21.0778 0.677083
21.5209 0.703125
21.964 0.572917
22.4072 0.546875
22.8503 0.46875
23.2934 0.46875
23.7365 0.755208
24.1796 0.677083
24.6227 0.494792
25.0658 0.598958
25.509 0.520833
25.9521 0.46875
26.3952 0.416667
26.8383 0.546875
27.2814 0.703125
27.7245 0.416667
28.1676 0.260417
28.6107 0.3125
29.0539 0.572917
29.497 0.78125
29.9401 0.885417
30.3832 0.3125
30.8263 0.416667
31.2694 0.338542
31.7125 0.390625
32.1556 0.338542
32.5988 0.338542
33.0419 0.234375
33.485 0.338542
33.9281 0.390625
34.3712 0.390625
34.8143 0.520833
35.2574 0.260417
35.7005 0.15625
36.1437 0.15625
36.5868 0.260417
37.0299 0.234375
37.473 0.338542
37.9161 0.364583
38.3592 0.364583
38.8023 1.32812
39.2455 0.364583
39.6886 0.364583
40.1317 0.416667
40.5748 0.46875
41.0179 49.375
41.461 0.520833
41.9041 0.494792
42.3472 0.46875
42.7904 0.390625
43.2335 0.3125
43.6766 0.442708
44.1197 22.0052
44.5628 0.364583
45.0059 0.260417
45.449 0.390625
45.8921 0.260417
46.3353 0.338542
46.7784 0.859375
47.2215 0.3125
47.6646 0.364583
48.1077 0.15625
48.5508 0.182292
48.9939 0.208333
49.437 0.520833
49.8802 0.234375
50.3233 0.520833
50.7664 16.4062
51.2095 0.364583
51.6526 0.260417
52.0957 0.494792
52.5388 0.3125
52.982 0.182292
53.4251 0.130208
53.8682 0.3125
54.3113 0.416667
54.7544 0.494792
55.1975 0.234375
55.6406 0.182292
56.0837 0.182292
56.5269 0.234375
56.97 0.286458
57.4131 0.15625
57.8562 0.182292
58.2993 0.46875
58.7424 0.15625
59.1855 0.260417
59.6286 0.104167
60.0718 0.208333
60.5149 0.234375
60.958 0.208333
61.4011 0.364583
61.8442 7.42187
62.2873 0.46875
62.7304 0.234375
63.1735 0.15625
63.6167 0.208333
64.0598 0.234375
64.5029 0.182292
64.946 0.15625
65.3891 0.703125
65.8322 0.130208
66.2753 0.338542
66.7185 0.3125
67.1616 0.46875
67.6047 1.27604
68.0478 13.2292
68.4909 0.338542
68.934 0.286458
69.3771 0.598958
69.8202 0.442708
70.2634 0.364583
70.7065 0.598958
71.1496 0.208333
71.5927 0.208333
72.0358 0.182292
72.4789 1.95312
72.922 0.390625
73.3651 0.3125
73.8083 0.260417
74.2514 0.182292
74.6945 0.15625
75.1376 0.130208
75.5807 0.104167
76.0238 0.182292
76.4669 0.208333
76.91 0.182292
77.3532 0.182292
77.7963 0.286458
78.2394 0.390625
78.6825 0.651042
79.1256 3.67187
79.5687 0.520833
80.0118 0.338542
80.455 0.416667
80.8981 1.09375
81.3412 10.0781
81.7843 0.677083
82.2274 0.286458
82.6705 0.416667
83.1136 0.260417
83.5567 0.364583
83.9999 1.27604
84.443 0.3125
84.8861 0.182292
85.3292 0.260417
85.7723 0.234375
86.2154 0.3125
86.6585 0.234375
87.1016 0.104167
87.5448 0.208333
87.9879 0.364583
88.431 0.286458
88.8741 0.338542
89.3172 0.78125
89.7603 0.286458
90.2034 0.3125
90.6465 0.15625
91.0897 0.390625
91.5328 0.3125
91.9759 0.364583
92.419 2.13542
92.8621 4.60937
93.3052 0.364583
93.7483 0.208333
94.1915 0.494792
94.6346 0.234375
95.0777 0.338542
95.5208 0.15625
95.9639 0.15625
96.407 0.286458
96.8501 0.234375
97.2932 0.729167
97.7364 1.58854
98.1795 0.182292
98.6226 0.208333
99.0657 0.260417
99.5088 0.364583
99.9519 0.15625
100.395 0.234375
100.838 0.520833
101.281 0.390625
101.724 0.286458
102.167 0.286458
102.611 0.572917
103.054 0.15625
103.497 0.260417
103.94 0.364583
104.383 0.286458
104.826 0.364583
105.269 1.17187
105.712 1.35417
106.155 0.15625
106.599 0.260417
107.042 0.130208
107.485 0.442708
107.928 0.182292
108.371 0.3125
108.814 1.19792
109.257 3.28125
109.7 0.182292
110.144 0.208333
110.587 0.234375
111.03 0.182292
111.473 0.703125
111.916 0.807292
112.359 1.22396
112.802 0.208333
113.245 0.390625
113.688 0.286458
114.132 0.3125
114.575 0.15625
115.018 0.234375
115.461 0.390625
115.904 0.260417
116.347 0.338542
116.79 0.286458
117.233 0.390625
117.676 0.677083
118.12 9.47917
118.563 3.64583
119.006 0.46875
119.449 0.234375
119.892 0.234375
120.335 0.3125
120.778 0.390625
121.221 0.208333
121.664 0.390625
122.108 0.390625
122.551 0.494792
122.994 2.00521
123.437 1.19792
123.88 0.338542
124.323 0.234375
124.766 0.208333
125.209 0.3125
125.652 0.390625
126.096 0.494792
126.539 0.338542
126.982 0.520833
127.425 6.45833
127.868 4.14062
128.311 0.520833
128.754 0.338542
129.197 0.3125
129.64 0.286458
130.084 0.442708
130.527 0.234375
130.97 0.494792
131.413 0.651042
131.856 0.729167
132.299 0.390625
132.742 0.260417
133.185 0.416667
133.628 0.390625
134.072 0.364583
134.515 0.390625
134.958 0.390625
135.401 0.260417
135.844 0.442708
136.287 0.546875
136.73 0.390625
137.173 0.234375
137.617 0.364583
138.06 0.390625
138.503 0.390625
138.946 0.546875
139.389 0.208333
139.832 0.442708
139.997 0.3125

File: Al2O3_Mesh 320 (40 to 50 microns)_1.xy
'Id: "" Comment: "" Operator: "Lab Manager" Anode: "Co" Scantype: "Coupled TwoTheta/Theta" TimePerStep: "38.4"
10 1.69271
10.4431 1.40625
10.8862 1.30208
11.3293 1.40625
11.7725 1.32812
12.2156 1.40625
12.6587 1.64062
13.1018 1.64062
13.5449 1.01562
13.988 1.17187
14.4311 1.01562
14.8742 1.01562
15.3174 0.9375
15.7605 1.04167
16.2036 1.04167
16.6467 0.963542
17.0898 0.963542
17.5329 0.703125
17.976 1.22396
18.4191 0.989583
18.8623 0.989583
19.3054 0.729167
19.7485 1.04167
20.1916 0.677083
20.6347 0.78125
21.0778 0.651042
21.5209 0.885417
21.964 0.651042
22.4072 0.416667
22.8503 0.703125
23.2934 0.286458
23.7365 0.598958
24.1796 0.677083
24.6227 0.520833
25.0658 0.46875
25.509 0.546875
25.9521 0.625
26.3952 0.286458
26.8383 0.677083
27.2814 0.598958
27.7245 0.625
28.1676 0.364583
28.6107 0.364583
29.0539 0.625
29.497 0.963542
29.9401 1.19792
30.3832 0.833333
30.8263 0.416667
31.2694 0.546875
31.7125 0.260417
32.1556 0.546875
32.5988 0.364583
33.0419 0.286458
33.485 0.390625
33.9281 0.3125
34.3712 0.182292
34.8143 0.442708
35.2574 0.3125
35.7005 0.416667
36.1437 0.208333
36.5868 0.364583
37.0299 0.625
37.473 0.520833
37.9161 0.390625
38.3592 0.390625
38.8023 1.09375
39.2455 0.338542
39.6886 0.46875
40.1317 0.234375
40.5748 0.625
41.0179 35.8073
41.461 0.78125
41.9041 0.625
42.3472 0.3125
42.7904 0.651042
43.2335 0.260417
43.6766 0.286458
44.1197 26.875
44.5628 0.46875
45.0059 0.442708
45.449 0.46875
45.8921 0.234375
46.3353 0.46875
46.7784 0.390625
47.2215 0.442708
47.6646 0.364583
48.1077 0.260417
48.5508 0.338542
48.9939 0.208333
49.437 0.677083
49.8802 0.546875
50.3233 1.11979
50.7664 44.5833
51.2095 0.703125
51.6526 0.390625
52.0957 0.338542
52.5388 0.442708
52.982 0.390625
53.4251 0.208333
53.8682 0.390625
54.3113 0.416667
54.7544 0.46875
55.1975 0.260417
55.6406 0.286458
56.0837 0.286458
56.5269 0.3125
56.97 0.15625
57.4131 0.15625
57.8562 0.130208
58.2993 0.208333
58.7424 0.15625
59.1855 0.208333
59.6286 0.260417
60.0718 0.208333
60.5149 0.260417
60.958 0.208333
61.4011 0.286458
61.8442 17.8385
62.2873 0.625
62.7304 0.364583
63.1735 0.234375
63.6167 0.260417
64.0598 0.260417
64.5029 0.078125
64.946 0.208333
65.3891 0.286458
65.8322 0.15625
66.2753 0.182292
66.7185 0.234375
67.1616 0.677083
67.6047 1.90104
68.0478 18.6198
68.4909 0.520833
68.934 0.442708
69.3771 0.703125
69.8202 0.208333
70.2634 0.3125
70.7065 0.989583
71.1496 0.182292
71.5927 0.208333
72.0358 0.729167
72.4789 2.73437
72.922 0.546875
73.3651 0.260417
73.8083 0.416667
74.2514 0.286458
74.6945 0.208333
75.1376 0.364583
75.5807 0.234375
76.0238 0.130208
76.4669 0.416667
76.91 0.208333
77.3532 0.364583
77.7963 0.260417
78.2394 0.286458
78.6825 0.807292
79.1256 8.51562
79.5687 1.17187
80.0118 0.520833
80.455 0.390625
80.8981 1.61458
81.3412 10.8073
81.7843 0.859375
82.2274 0.494792
82.6705 0.3125
83.1136 0.390625
83.5567 0.338542
83.9999 1.35417
84.443 0.338542
84.8861 0.234375
85.3292 0.364583
85.7723 0.390625
86.2154 0.364583
86.6585 0.3125
87.1016 0.260417
87.5448 0.260417
87.9879 0.338542
88.431 0.208333
88.8741 0.494792
89.3172 0.390625
89.7603 0.390625
90.2034 0.286458
90.6465 0.416667
91.0897 0.364583
91.5328 0.208333
91.9759 0.46875
92.419 5.67708
92.8621 5.07812
93.3052 0.442708
93.7483 0.182292
94.1915 0.182292
94.6346 0.208333
95.0777 0.338542
95.5208 0.390625
95.9639 0.442708
96.407 0.15625
96.8501 0.546875
97.2932 0.807292
97.7364 2.68229
98.1795 0.286458
98.6226 0.3125
99.0657 0.078125
99.5088 0.260417
99.9519 0.494792
100.395 0.234375
100.838 0.703125
101.281 0.416667
101.724 0.286458
102.167 0.572917
102.611 1.04167
103.054 0.3125
103.497 0.546875
103.94 0.390625
104.383 0.364583
104.826 0.416667
105.269 1.61458
105.712 1.11979
106.155 0.338542
106.599 0.234375
107.042 0.338542
107.485 0.3125
107.928 0.338542
108.371 0.260417
108.814 1.48437
109.257 2.68229
109.7 0.3125
110.144 0.286458
110.587 0.3125
111.03 0.364583
111.473 0.911458
111.916 1.875
112.359 2.03125
112.802 0.416667
113.245 0.416667
113.688 0.15625
114.132 0.208333
114.575 0.286458
115.018 0.520833
115.461 0.364583
115.904 0.416667
116.347 0.442708
116.79 0.338542
117.233 0.494792
117.676 1.01562
118.12 12.7344
118.563 4.47917
119.006 0.677083
119.449 0.416667
119.892 0.3125
120.335 0.338542
120.778 0.286458
121.221 0.416667
121.664 0.390625
122.108 0.3125
122.551 0.286458
122.994 2.73437
123.437 1.43229
123.88 0.416667
124.323 0.338542
124.766 0.260417
125.209 0.494792
125.652 0.442708
126.096 0.494792
126.539 0.625
126.982 0.78125
127.425 8.07292
127.868 4.92187
128.311 0.546875
128.754 0.416667
129.197 0.494792
129.64 0.364583
130.084 0.46875
130.527 0.46875
130.97 0.755208
131.413 0.78125
131.856 0.755208
132.299 0.442708
132.742 0.338542
133.185 0.442708
133.628 0.598958
134.072 0.416667
134.515 0.364583
134.958 0.677083
135.401 0.208333
135.844 0.442708
136.287 0.494792
136.73 0.442708
137.173 0.651042
137.617 0.3125
138.06 0.364583
138.503 0.260417
138.946 0.546875
139.389 0.390625
139.832 0.494792
139.997 0.494792

File: Al2O3_Mesh 600 (10 to 14 microns)_1.xy
'Id: "" Comment: "" Operator: "Lab Manager" Anode: "Co" Scantype: "Coupled TwoTheta/Theta" TimePerStep: "38.4"
10 1.61458
10.4431 1.32812
10.8862 1.30208
11.3293 1.58854
11.7725 1.48437
12.2156 1.19792
12.6587 1.17187
13.1018 1.30208
13.5449 0.963542
13.988 0.78125
14.4311 1.11979
14.8742 1.32812
15.3174 1.14583
15.7605 0.963542
16.2036 0.859375
16.6467 1.06771
17.0898 1.32812
17.5329 0.911458
17.976 1.01562
18.4191 1.06771
18.8623 0.651042
19.3054 0.677083
19.7485 1.04167
20.1916 0.807292
20.6347 0.729167
21.0778 0.651042
21.5209 0.442708
21.964 0.46875
22.4072 0.807292
22.8503 0.833333
23.2934 0.598958
23.7365 0.78125
24.1796 0.703125
24.6227 0.729167
25.0658 0.703125
25.509 0.442708
25.9521 0.390625
26.3952 0.598958
26.8383 0.677083
27.2814 0.442708
27.7245 0.416667
28.1676 0.520833
28.6107 0.416667
29.0539 0.677083
29.497 1.74479
29.9401 3.04687
30.3832 0.46875
30.8263 0.494792
31.2694 0.3125
31.7125 0.520833
32.1556 0.416667
32.5988 0.46875
33.0419 0.364583
33.485 0.182292
33.9281 0.390625
34.3712 0.520833
34.8143 0.3125
35.2574 0.390625
35.7005 0.416667
36.1437 0.3125
36.5868 0.260417
37.0299 0.625
37.473 0.260417
37.9161 0.234375
38.3592 0.390625
38.8023 1.25
39.2455 0.3125
39.6886 0.390625
40.1317 0.442708
40.5748 0.859375
41.0179 81.5104
41.461 0.885417
41.9041 0.520833
42.3472 0.598958
42.7904 0.416667
43.2335 0.520833
43.6766 0.546875
44.1197 42.8385
44.5628 0.598958
45.0059 0.625
45.449 0.234375
45.8921 0.260417
46.3353 0.520833
46.7784 0.78125
47.2215 0.546875
47.6646 0.130208
48.1077 0.416667
48.5508 0.234375
48.9939 0.286458
49.437 0.833333
49.8802 0.390625
50.3233 0.885417
50.7664 85.7552
51.2095 1.19792
51.6526 0.703125
52.0957 0.416667
52.5388 0.182292
52.982 0.286458
53.4251 0.494792
53.8682 0.572917
54.3113 0.494792
54.7544 0.364583
55.1975 0.3125
55.6406 0.260417
56.0837 0.338542
56.5269 0.286458
56.97 0.364583
57.4131 0.182292
57.8562 0.208333
58.2993 0.260417
58.7424 0.390625
59.1855 0.338542
59.6286 0.234375
60.0718 0.3125
60.5149 0.208333
60.958 0.364583
61.4011 0.807292
61.8442 31.3542
62.2873 0.963542
62.7304 0.46875
63.1735 0.520833
63.6167 0.364583
64.0598 0.3125
64.5029 0.338542
64.946 0.286458
65.3891 0.520833
65.8322 0.182292
66.2753 0.364583
66.7185 0.3125
67.1616 0.859375
67.6047 2.99479
68.0478 32.8385
68.4909 1.17187
68.934 0.572917
69.3771 0.755208
69.8202 0.416667
70.2634 0.546875
70.7065 1.04167
71.1496 0.46875
71.5927 0.416667
72.0358 0.677083
72.4789 2.47396
72.922 0.598958
73.3651 0.286458
73.8083 0.104167
74.2514 0.234375
74.6945 0.286458
75.1376 0.182292
75.5807 0.390625
76.0238 0.234375
76.4669 0.364583
76.91 0.286458
77.3532 0.182292
77.7963 0.3125
78.2394 0.546875
78.6825 0.859375
79.1256 14.6094
79.5687 1.48437
80.0118 0.520833
80.455 0.390625
80.8981 2.29167
81.3412 13.3073
81.7843 1.61458
82.2274 0.885417
82.6705 0.651042
83.1136 0.546875
83.5567 0.46875
83.9999 0.911458
84.443 0.338542
84.8861 0.46875
85.3292 0.286458
85.7723 0.260417
86.2154 0.494792
86.6585 0.286458
87.1016 0.208333
87.5448 0.338542
87.9879 0.208333
88.431 0.234375
88.8741 0.364583
89.3172 0.625
89.7603 0.260417
90.2034 0.3125
90.6465 0.260417
91.0897 0.234375
91.5328 0.260417
91.9759 0.651042
92.419 8.59375
92.8621 5.07812
93.3052 0.703125
93.7483 0.234375
94.1915 0.3125
94.6346 0.130208
95.0777 0.234375
95.5208 0.494792
95.9639 0.182292
96.407 0.234375
96.8501 0.520833
97.2932 1.11979
97.7364 2.03125
98.1795 0.234375
98.6226 0.390625
99.0657 0.416667
99.5088 0.364583
99.9519 0.364583
100.395 0.286458
100.838 0.677083
101.281 0.494792
101.724 0.572917
102.167 0.494792
102.611 1.27604
103.054 0.46875
103.497 0.338542
103.94 0.442708
104.383 0.338542
104.826 0.364583
105.269 2.26562
105.712 1.17187
106.155 0.625
106.599 0.338542
107.042 0.3125
107.485 0.3125
107.928 0.416667
108.371 0.260417
108.814 1.35417
109.257 2.44792
109.7 0.46875
110.144 0.364583
110.587 0.208333
111.03 0.46875
111.473 1.17187
111.916 1.84896
112.359 2.1875
112.802 0.755208
113.245 0.598958
113.688 0.494792
114.132 0.390625
114.575 0.338542
115.018 0.286458
115.461 0.494792
115.904 0.390625
116.347 0.286458
116.79 0.442708
117.233 0.572917
117.676 0.911458
118.12 11.5625
118.563 6.53646
119.006 0.859375
119.449 0.390625
119.892 0.416667
120.335 0.338542
120.778 0.390625
121.221 0.3125
121.664 0.234375
122.108 0.494792
122.551 0.625
122.994 1.58854
123.437 0.963542
123.88 0.703125
124.323 0.572917
124.766 0.3125
125.209 0.546875
125.652 0.234375
126.096 0.390625
126.539 0.677083
126.982 1.09375
127.425 7.60417
127.868 4.60937
128.311 1.14583
128.754 0.46875
129.197 0.572917
129.64 0.494792
130.084 0.416667
130.527 0.546875
130.97 0.9375
131.413 0.78125
131.856 1.17187
132.299 0.390625
132.742 0.3125
133.185 0.338542
133.628 0.625
134.072 0.286458
134.515 0.46875
134.958 0.625
135.401 0.46875
135.844 0.442708
136.287 0.442708
136.73 0.442708
137.173 0.520833
137.617 0.3125
138.06 0.3125
138.503 0.390625
138.946 0.46875
139.389 0.494792
139.832 0.3125
139.997 0.260417